# Temperature (C)	Pressure (bar)	Quality (l+v)	Internal Energy (l+v, kJ/mol)	Enthalpy (l+v, kJ/mol)	Entropy (l+v, J/mol*K)	Density (l, kg/m3)	Volume (l, m3/kg)	Internal Energy (l, kJ/mol)	Enthalpy (l, kJ/mol)	Entropy (l, J/mol*K)	Cv (l, J/mol*K)	Cp (l, J/mol*K)	Sound Spd. (l, m/s)	Joule-Thomson (l, K/bar)	Viscosity (l, uPa*s)	Therm. Cond. (l, W/m*K)	Density (v, kg/m3)	Volume (v, m3/kg)	Internal Energy (v, kJ/mol)	Enthalpy (v, kJ/mol)	Entropy (v, J/mol*K)	Cv (v, J/mol*K)	Cp (v, J/mol*K)	Sound Spd. (v, m/s)	Joule-Thomson (v, K/bar)	Viscosity (v, uPa*s)	Therm. Cond. (v, W/m*K)
-100.00	1.5759	0.49780	5.7966	6.4863	37.496	2887.3	0.00034634	0.35637	0.36354	2.1352	21.289	44.876	620.14	-0.059488	438.65	0.067736	15.012	0.066612	11.285	12.663	73.170	13.735	23.759	131.68	5.4642	14.251	0.0033751
-99.500	1.6171	0.50982	5.9409	6.6486	38.328	2883.9	0.00034675	0.37873	0.38609	2.2642	21.258	44.901	618.71	-0.059276	435.68	0.067548	15.373	0.065049	11.289	12.670	73.002	13.755	23.812	131.81	5.4267	14.289	0.0033865
-99.000	1.6591	0.52206	6.0870	6.8131	39.168	2880.5	0.00034717	0.40110	0.40866	2.3929	21.228	44.927	617.28	-0.059061	432.73	0.067359	15.740	0.063531	11.292	12.676	72.835	13.775	23.865	131.93	5.3896	14.327	0.0033980
-98.500	1.7020	0.53453	6.2351	6.9799	40.017	2877.0	0.00034758	0.42348	0.43124	2.5212	21.197	44.953	615.85	-0.058844	429.81	0.067170	16.114	0.062058	11.296	12.683	72.669	13.795	23.919	132.06	5.3529	14.366	0.0034095
-98.000	1.7457	0.54721	6.3851	7.1491	40.875	2873.6	0.00034800	0.44587	0.45384	2.6493	21.167	44.980	614.42	-0.058623	426.91	0.066981	16.494	0.060627	11.299	12.689	72.505	13.815	23.974	132.19	5.3166	14.404	0.0034210
-97.500	1.7903	0.56012	6.5371	7.3206	41.742	2870.1	0.00034841	0.46827	0.47646	2.7771	21.137	45.008	612.98	-0.058399	424.04	0.066791	16.881	0.059237	11.303	12.695	72.341	13.835	24.029	132.31	5.2806	14.442	0.0034326
-97.000	1.8357	0.57327	6.6910	7.4944	42.617	2866.7	0.00034883	0.49068	0.49909	2.9045	21.108	45.036	611.54	-0.058173	421.20	0.066602	17.275	0.057887	11.306	12.702	72.178	13.856	24.085	132.44	5.2451	14.481	0.0034442
-96.500	1.8820	0.58664	6.8470	7.6706	43.501	2863.2	0.00034926	0.51310	0.52173	3.0317	21.078	45.065	610.10	-0.057943	418.38	0.066412	17.676	0.056575	11.310	12.708	72.016	13.877	24.142	132.56	5.2099	14.519	0.0034558
-96.000	1.9292	0.60025	7.0049	7.8492	44.394	2859.8	0.00034968	0.53554	0.54440	3.1586	21.049	45.094	608.66	-0.057711	415.58	0.066222	18.083	0.055300	11.313	12.714	71.855	13.898	24.199	132.68	5.1751	14.558	0.0034675
-95.500	1.9772	0.61410	7.1649	8.0302	45.296	2856.3	0.00035010	0.55799	0.56708	3.2852	21.019	45.125	607.22	-0.057475	412.80	0.066032	18.498	0.054060	11.317	12.720	71.695	13.919	24.257	132.81	5.1407	14.597	0.0034792
-95.000	2.0262	0.62819	7.3269	8.2137	46.206	2852.8	0.00035053	0.58045	0.58977	3.4115	20.990	45.155	605.78	-0.057236	410.05	0.065842	18.920	0.052855	11.320	12.726	71.536	13.940	24.316	132.93	5.1066	14.636	0.0034910
-94.500	2.0760	0.64252	7.4910	8.3996	47.126	2849.3	0.00035096	0.60292	0.61249	3.5375	20.962	45.187	604.34	-0.056994	407.33	0.065652	19.348	0.051684	11.323	12.732	71.378	13.961	24.375	133.05	5.0728	14.675	0.0035028
-94.000	2.1268	0.65709	7.6572	8.5880	48.055	2845.8	0.00035139	0.62541	0.63522	3.6633	20.933	45.218	602.89	-0.056750	404.62	0.065461	19.784	0.050545	11.327	12.738	71.221	13.983	24.435	133.16	5.0394	14.714	0.0035146
-93.500	2.1786	0.67192	7.8254	8.7788	48.993	2842.3	0.00035182	0.64790	0.65797	3.7888	20.904	45.251	601.44	-0.056502	401.94	0.065271	20.228	0.049437	11.330	12.744	71.064	14.005	24.496	133.28	5.0064	14.753	0.0035265
-93.000	2.2312	0.68700	7.9957	8.9722	49.939	2838.8	0.00035226	0.67042	0.68074	3.9140	20.876	45.284	599.99	-0.056250	399.28	0.065080	20.678	0.048360	11.333	12.750	70.909	14.026	24.558	133.40	4.9737	14.792	0.0035384
-92.500	2.2848	0.70234	8.1681	9.1681	50.895	2835.3	0.00035269	0.69294	0.70352	4.0389	20.848	45.318	598.54	-0.055996	396.64	0.064890	21.137	0.047311	11.336	12.756	70.754	14.048	24.620	133.51	4.9413	14.832	0.0035504
-92.000	2.3394	0.71793	8.3427	9.3665	51.860	2831.8	0.00035313	0.71548	0.72633	4.1636	20.820	45.353	597.09	-0.055738	394.02	0.064699	21.602	0.046291	11.339	12.761	70.600	14.071	24.683	133.63	4.9092	14.871	0.0035624
-91.500	2.3950	0.73378	8.5194	9.5676	52.834	2828.3	0.00035357	0.73804	0.74915	4.2880	20.792	45.388	595.64	-0.055477	391.43	0.064508	22.076	0.045298	11.342	12.767	70.447	14.093	24.747	133.74	4.8775	14.911	0.0035744
-91.000	2.4516	0.74990	8.6983	9.7712	53.817	2824.8	0.00035401	0.76060	0.77200	4.4122	20.764	45.423	594.18	-0.055213	388.85	0.064317	22.557	0.044332	11.346	12.772	70.295	14.116	24.811	133.85	4.8461	14.951	0.0035865
-90.500	2.5091	0.76629	8.8793	9.9774	54.810	2821.2	0.00035446	0.78319	0.79486	4.5360	20.737	45.460	592.72	-0.054946	386.30	0.064127	23.046	0.043392	11.349	12.778	70.143	14.138	24.877	133.96	4.8150	14.991	0.0035986
-90.000	2.5677	0.78294	9.0625	10.186	55.811	2817.7	0.00035490	0.80578	0.81775	4.6597	20.709	45.497	591.26	-0.054675	383.77	0.063936	23.543	0.042476	11.352	12.783	69.992	14.161	24.943	134.07	4.7842	15.031	0.0036108
-89.500	2.6272	0.79987	9.2479	10.398	56.822	2814.1	0.00035535	0.82840	0.84065	4.7831	20.682	45.535	589.80	-0.054400	381.25	0.063745	24.047	0.041584	11.354	12.789	69.843	14.184	25.010	134.18	4.7537	15.071	0.0036231
-89.000	2.6879	0.81708	9.4355	10.612	57.842	2810.6	0.00035580	0.85102	0.86358	4.9062	20.655	45.573	588.34	-0.054122	378.76	0.063554	24.560	0.040716	11.357	12.794	69.693	14.208	25.077	134.29	4.7235	15.111	0.0036353
-88.500	2.7495	0.83456	9.6253	10.829	58.872	2807.0	0.00035625	0.87367	0.88653	5.0291	20.628	45.612	586.88	-0.053841	376.29	0.063363	25.081	0.039870	11.360	12.799	69.545	14.231	25.146	134.39	4.6937	15.152	0.0036477
-88.000	2.8122	0.85233	9.8174	11.048	59.911	2803.4	0.00035671	0.89633	0.90950	5.1517	20.601	45.652	585.41	-0.053556	373.84	0.063172	25.611	0.039046	11.363	12.805	69.398	14.255	25.215	134.50	4.6641	15.192	0.0036600
-87.500	2.8760	0.87039	10.012	11.270	60.959	2799.8	0.00035716	0.91900	0.93249	5.2741	20.574	45.692	583.94	-0.053268	371.40	0.062981	26.148	0.038244	11.366	12.810	69.251	14.278	25.285	134.60	4.6347	15.233	0.0036724
-87.000	2.9408	0.88874	10.208	11.495	62.016	2796.2	0.00035762	0.94170	0.95550	5.3963	20.548	45.734	582.47	-0.052976	368.99	0.062790	26.694	0.037462	11.368	12.815	69.105	14.302	25.356	134.70	4.6057	15.274	0.0036849
-86.500	3.0068	0.90738	10.407	11.723	63.083	2792.7	0.00035808	0.96440	0.97854	5.5182	20.522	45.776	581.00	-0.052681	366.59	0.062599	27.248	0.036699	11.371	12.820	68.959	14.326	25.427	134.81	4.5770	15.315	0.0036974
-86.000	3.0738	0.92631	10.608	11.954	64.160	2789.0	0.00035855	0.98713	1.0016	5.6399	20.495	45.818	579.53	-0.052381	364.21	0.062408	27.811	0.035956	11.374	12.825	68.815	14.350	25.500	134.91	4.5485	15.356	0.0037100
-85.500	3.1419	0.94555	10.812	12.187	65.245	2785.4	0.00035901	1.0099	1.0247	5.7613	20.469	45.861	578.05	-0.052079	361.85	0.062217	28.383	0.035232	11.376	12.830	68.671	14.375	25.573	135.01	4.5203	15.397	0.0037226
-85.000	3.2112	0.96509	11.018	12.423	66.341	2781.8	0.00035948	1.0326	1.0478	5.8826	20.444	45.905	576.58	-0.051772	359.51	0.062026	28.963	0.034526	11.379	12.834	68.528	14.399	25.647	135.11	4.4924	15.438	0.0037353
-84.500	3.2816	0.98493	11.226	12.662	67.445	2778.2	0.00035995	1.0554	1.0709	6.0036	20.418	45.950	575.10	-0.051462	357.19	0.061835	29.553	0.033838	11.381	12.839	68.385	14.424	25.722	135.20	4.4647	15.480	0.0037480
-84.000	3.3377	undefined	11.385	12.846	68.289	30.000	0.033333	11.385	12.846	68.289	14.435	25.765	135.33	4.4371	15.520	0.0037599	30.000	0.033333	11.385	12.846	68.289	14.435	25.765	135.33	4.4371	15.520	0.0037599
-83.500	3.3479	undefined	11.392	12.857	68.327	30.000	0.033333	11.392	12.857	68.327	14.406	25.707	135.56	4.4090	15.555	0.0037691	30.000	0.033333	11.392	12.857	68.327	14.406	25.707	135.56	4.4090	15.555	0.0037691
-83.000	3.3582	undefined	11.399	12.869	68.365	30.000	0.033333	11.399	12.869	68.365	14.378	25.650	135.79	4.3813	15.591	0.0037783	30.000	0.033333	11.399	12.869	68.365	14.378	25.650	135.79	4.3813	15.591	0.0037783
-82.500	3.3684	undefined	11.407	12.881	68.402	30.000	0.033333	11.407	12.881	68.402	14.351	25.595	136.02	4.3540	15.626	0.0037875	30.000	0.033333	11.407	12.881	68.402	14.351	25.595	136.02	4.3540	15.626	0.0037875
-82.000	3.3786	undefined	11.414	12.892	68.440	30.000	0.033333	11.414	12.892	68.440	14.324	25.541	136.24	4.3271	15.662	0.0037967	30.000	0.033333	11.414	12.892	68.440	14.324	25.541	136.24	4.3271	15.662	0.0037967
-81.500	3.3889	undefined	11.421	12.904	68.477	30.000	0.033333	11.421	12.904	68.477	14.298	25.489	136.47	4.3005	15.697	0.0038059	30.000	0.033333	11.421	12.904	68.477	14.298	25.489	136.47	4.3005	15.697	0.0038059
-81.000	3.3991	undefined	11.428	12.916	68.514	30.000	0.033333	11.428	12.916	68.514	14.272	25.437	136.69	4.2742	15.733	0.0038152	30.000	0.033333	11.428	12.916	68.514	14.272	25.437	136.69	4.2742	15.733	0.0038152
-80.500	3.4093	undefined	11.435	12.927	68.551	30.000	0.033333	11.435	12.927	68.551	14.248	25.387	136.92	4.2483	15.768	0.0038244	30.000	0.033333	11.435	12.927	68.551	14.248	25.387	136.92	4.2483	15.768	0.0038244
-80.000	3.4195	undefined	11.442	12.939	68.588	30.000	0.033333	11.442	12.939	68.588	14.223	25.338	137.14	4.2227	15.804	0.0038336	30.000	0.033333	11.442	12.939	68.588	14.223	25.338	137.14	4.2227	15.804	0.0038336
-79.500	3.4297	undefined	11.449	12.950	68.625	30.000	0.033333	11.449	12.950	68.625	14.200	25.290	137.36	4.1974	15.839	0.0038428	30.000	0.033333	11.449	12.950	68.625	14.200	25.290	137.36	4.1974	15.839	0.0038428
-79.000	3.4399	undefined	11.456	12.962	68.662	30.000	0.033333	11.456	12.962	68.662	14.177	25.242	137.58	4.1725	15.875	0.0038520	30.000	0.033333	11.456	12.962	68.662	14.177	25.242	137.58	4.1725	15.875	0.0038520
-78.500	3.4501	undefined	11.464	12.973	68.698	30.000	0.033333	11.464	12.973	68.698	14.154	25.196	137.80	4.1478	15.910	0.0038612	30.000	0.033333	11.464	12.973	68.698	14.154	25.196	137.80	4.1478	15.910	0.0038612
-78.000	3.4603	undefined	11.471	12.985	68.734	30.000	0.033333	11.471	12.985	68.734	14.132	25.151	138.02	4.1235	15.946	0.0038703	30.000	0.033333	11.471	12.985	68.734	14.132	25.151	138.02	4.1235	15.946	0.0038703
-77.500	3.4705	undefined	11.478	12.997	68.771	30.000	0.033333	11.478	12.997	68.771	14.110	25.107	138.24	4.0995	15.982	0.0038795	30.000	0.033333	11.478	12.997	68.771	14.110	25.107	138.24	4.0995	15.982	0.0038795
-77.000	3.4806	undefined	11.485	13.008	68.807	30.000	0.033333	11.485	13.008	68.807	14.089	25.064	138.46	4.0757	16.017	0.0038887	30.000	0.033333	11.485	13.008	68.807	14.089	25.064	138.46	4.0757	16.017	0.0038887
-76.500	3.4908	undefined	11.492	13.019	68.842	30.000	0.033333	11.492	13.019	68.842	14.069	25.021	138.68	4.0522	16.053	0.0038979	30.000	0.033333	11.492	13.019	68.842	14.069	25.021	138.68	4.0522	16.053	0.0038979
-76.000	3.5009	undefined	11.499	13.031	68.878	30.000	0.033333	11.499	13.031	68.878	14.049	24.980	138.90	4.0290	16.088	0.0039071	30.000	0.033333	11.499	13.031	68.878	14.049	24.980	138.90	4.0290	16.088	0.0039071
-75.500	3.5111	undefined	11.506	13.042	68.914	30.000	0.033333	11.506	13.042	68.914	14.029	24.939	139.11	4.0061	16.124	0.0039162	30.000	0.033333	11.506	13.042	68.914	14.029	24.939	139.11	4.0061	16.124	0.0039162
-75.000	3.5212	undefined	11.513	13.054	68.949	30.000	0.033333	11.513	13.054	68.949	14.010	24.899	139.33	3.9834	16.160	0.0039254	30.000	0.033333	11.513	13.054	68.949	14.010	24.899	139.33	3.9834	16.160	0.0039254
-74.500	3.5314	undefined	11.520	13.065	68.984	30.000	0.033333	11.520	13.065	68.984	13.991	24.860	139.54	3.9610	16.195	0.0039346	30.000	0.033333	11.520	13.065	68.984	13.991	24.860	139.54	3.9610	16.195	0.0039346
-74.000	3.5415	undefined	11.527	13.077	69.020	30.000	0.033333	11.527	13.077	69.020	13.973	24.822	139.76	3.9389	16.231	0.0039437	30.000	0.033333	11.527	13.077	69.020	13.973	24.822	139.76	3.9389	16.231	0.0039437
-73.500	3.5516	undefined	11.534	13.088	69.055	30.000	0.033333	11.534	13.088	69.055	13.954	24.784	139.97	3.9170	16.267	0.0039529	30.000	0.033333	11.534	13.088	69.055	13.954	24.784	139.97	3.9170	16.267	0.0039529
-73.000	3.5618	undefined	11.541	13.100	69.089	30.000	0.033333	11.541	13.100	69.089	13.937	24.747	140.18	3.8954	16.302	0.0039621	30.000	0.033333	11.541	13.100	69.089	13.937	24.747	140.18	3.8954	16.302	0.0039621
-72.500	3.5719	undefined	11.548	13.111	69.124	30.000	0.033333	11.548	13.111	69.124	13.919	24.711	140.40	3.8739	16.338	0.0039712	30.000	0.033333	11.548	13.111	69.124	13.919	24.711	140.40	3.8739	16.338	0.0039712
-72.000	3.5820	undefined	11.555	13.122	69.159	30.000	0.033333	11.555	13.122	69.159	13.903	24.675	140.61	3.8528	16.374	0.0039804	30.000	0.033333	11.555	13.122	69.159	13.903	24.675	140.61	3.8528	16.374	0.0039804
-71.500	3.5921	undefined	11.562	13.134	69.193	30.000	0.033333	11.562	13.134	69.193	13.886	24.640	140.82	3.8318	16.409	0.0039895	30.000	0.033333	11.562	13.134	69.193	13.886	24.640	140.82	3.8318	16.409	0.0039895
-71.000	3.6022	undefined	11.569	13.145	69.228	30.000	0.033333	11.569	13.145	69.228	13.870	24.606	141.03	3.8111	16.445	0.0039987	30.000	0.033333	11.569	13.145	69.228	13.870	24.606	141.03	3.8111	16.445	0.0039987
-70.500	3.6123	undefined	11.576	13.156	69.262	30.000	0.033333	11.576	13.156	69.262	13.854	24.572	141.24	3.7906	16.481	0.0040078	30.000	0.033333	11.576	13.156	69.262	13.854	24.572	141.24	3.7906	16.481	0.0040078
-70.000	3.6224	undefined	11.582	13.168	69.296	30.000	0.033333	11.582	13.168	69.296	13.838	24.539	141.45	3.7704	16.516	0.0040170	30.000	0.033333	11.582	13.168	69.296	13.838	24.539	141.45	3.7704	16.516	0.0040170
-69.500	3.6325	undefined	11.589	13.179	69.330	30.000	0.033333	11.589	13.179	69.330	13.823	24.506	141.66	3.7503	16.552	0.0040261	30.000	0.033333	11.589	13.179	69.330	13.823	24.506	141.66	3.7503	16.552	0.0040261
-69.000	3.6426	undefined	11.596	13.190	69.364	30.000	0.033333	11.596	13.190	69.364	13.808	24.474	141.87	3.7305	16.588	0.0040352	30.000	0.033333	11.596	13.190	69.364	13.808	24.474	141.87	3.7305	16.588	0.0040352
-68.500	3.6527	undefined	11.603	13.202	69.398	30.000	0.033333	11.603	13.202	69.398	13.793	24.443	142.07	3.7108	16.624	0.0040444	30.000	0.033333	11.603	13.202	69.398	13.793	24.443	142.07	3.7108	16.624	0.0040444
-68.000	3.6627	undefined	11.610	13.213	69.431	30.000	0.033333	11.610	13.213	69.431	13.778	24.412	142.28	3.6914	16.659	0.0040535	30.000	0.033333	11.610	13.213	69.431	13.778	24.412	142.28	3.6914	16.659	0.0040535
-67.500	3.6728	undefined	11.617	13.224	69.465	30.000	0.033333	11.617	13.224	69.465	13.764	24.382	142.49	3.6722	16.695	0.0040626	30.000	0.033333	11.617	13.224	69.465	13.764	24.382	142.49	3.6722	16.695	0.0040626
-67.000	3.6829	undefined	11.624	13.236	69.498	30.000	0.033333	11.624	13.236	69.498	13.750	24.352	142.69	3.6532	16.731	0.0040717	30.000	0.033333	11.624	13.236	69.498	13.750	24.352	142.69	3.6532	16.731	0.0040717
-66.500	3.6929	undefined	11.631	13.247	69.531	30.000	0.033333	11.631	13.247	69.531	13.736	24.322	142.90	3.6343	16.767	0.0040809	30.000	0.033333	11.631	13.247	69.531	13.736	24.322	142.90	3.6343	16.767	0.0040809
-66.000	3.7030	undefined	11.638	13.258	69.565	30.000	0.033333	11.638	13.258	69.565	13.723	24.293	143.11	3.6157	16.802	0.0040900	30.000	0.033333	11.638	13.258	69.565	13.723	24.293	143.11	3.6157	16.802	0.0040900
-65.500	3.7131	undefined	11.644	13.269	69.598	30.000	0.033333	11.644	13.269	69.598	13.710	24.265	143.31	3.5972	16.838	0.0040991	30.000	0.033333	11.644	13.269	69.598	13.710	24.265	143.31	3.5972	16.838	0.0040991
-65.000	3.7231	undefined	11.651	13.281	69.631	30.000	0.033333	11.651	13.281	69.631	13.697	24.237	143.51	3.5789	16.874	0.0041082	30.000	0.033333	11.651	13.281	69.631	13.697	24.237	143.51	3.5789	16.874	0.0041082
-64.500	3.7332	undefined	11.658	13.292	69.664	30.000	0.033333	11.658	13.292	69.664	13.684	24.209	143.72	3.5608	16.910	0.0041173	30.000	0.033333	11.658	13.292	69.664	13.684	24.209	143.72	3.5608	16.910	0.0041173
-64.000	3.7432	undefined	11.665	13.303	69.696	30.000	0.033333	11.665	13.303	69.696	13.671	24.182	143.92	3.5429	16.945	0.0041264	30.000	0.033333	11.665	13.303	69.696	13.671	24.182	143.92	3.5429	16.945	0.0041264
-63.500	3.7532	undefined	11.672	13.314	69.729	30.000	0.033333	11.672	13.314	69.729	13.659	24.156	144.12	3.5251	16.981	0.0041355	30.000	0.033333	11.672	13.314	69.729	13.659	24.156	144.12	3.5251	16.981	0.0041355
-63.000	3.7633	undefined	11.679	13.326	69.761	30.000	0.033333	11.679	13.326	69.761	13.647	24.129	144.33	3.5076	17.017	0.0041446	30.000	0.033333	11.679	13.326	69.761	13.647	24.129	144.33	3.5076	17.017	0.0041446
-62.500	3.7733	undefined	11.685	13.337	69.794	30.000	0.033333	11.685	13.337	69.794	13.635	24.103	144.53	3.4902	17.053	0.0041537	30.000	0.033333	11.685	13.337	69.794	13.635	24.103	144.53	3.4902	17.053	0.0041537
-62.000	3.7833	undefined	11.692	13.348	69.826	30.000	0.033333	11.692	13.348	69.826	13.623	24.078	144.73	3.4729	17.089	0.0041628	30.000	0.033333	11.692	13.348	69.826	13.623	24.078	144.73	3.4729	17.089	0.0041628
-61.500	3.7934	undefined	11.699	13.359	69.858	30.000	0.033333	11.699	13.359	69.858	13.612	24.053	144.93	3.4558	17.124	0.0041719	30.000	0.033333	11.699	13.359	69.858	13.612	24.053	144.93	3.4558	17.124	0.0041719
-61.000	3.8034	undefined	11.706	13.370	69.890	30.000	0.033333	11.706	13.370	69.890	13.601	24.028	145.13	3.4389	17.160	0.0041810	30.000	0.033333	11.706	13.370	69.890	13.601	24.028	145.13	3.4389	17.160	0.0041810
-60.500	3.8134	undefined	11.713	13.382	69.922	30.000	0.033333	11.713	13.382	69.922	13.589	24.004	145.33	3.4221	17.196	0.0041901	30.000	0.033333	11.713	13.382	69.922	13.589	24.004	145.33	3.4221	17.196	0.0041901
-60.000	3.8234	undefined	11.719	13.393	69.954	30.000	0.033333	11.719	13.393	69.954	13.578	23.979	145.53	3.4055	17.232	0.0041992	30.000	0.033333	11.719	13.393	69.954	13.578	23.979	145.53	3.4055	17.232	0.0041992
-59.500	3.8334	undefined	11.726	13.404	69.986	30.000	0.033333	11.726	13.404	69.986	13.568	23.956	145.73	3.3891	17.268	0.0042083	30.000	0.033333	11.726	13.404	69.986	13.568	23.956	145.73	3.3891	17.268	0.0042083
-59.000	3.8434	undefined	11.733	13.415	70.018	30.000	0.033333	11.733	13.415	70.018	13.557	23.932	145.93	3.3728	17.303	0.0042173	30.000	0.033333	11.733	13.415	70.018	13.557	23.932	145.93	3.3728	17.303	0.0042173
-58.500	3.8535	undefined	11.740	13.426	70.049	30.000	0.033333	11.740	13.426	70.049	13.547	23.909	146.13	3.3566	17.339	0.0042264	30.000	0.033333	11.740	13.426	70.049	13.547	23.909	146.13	3.3566	17.339	0.0042264
-58.000	3.8635	undefined	11.747	13.437	70.081	30.000	0.033333	11.747	13.437	70.081	13.536	23.887	146.32	3.3406	17.375	0.0042355	30.000	0.033333	11.747	13.437	70.081	13.536	23.887	146.32	3.3406	17.375	0.0042355
-57.500	3.8735	undefined	11.753	13.449	70.112	30.000	0.033333	11.753	13.449	70.112	13.526	23.864	146.52	3.3247	17.411	0.0042446	30.000	0.033333	11.753	13.449	70.112	13.526	23.864	146.52	3.3247	17.411	0.0042446
-57.000	3.8835	undefined	11.760	13.460	70.144	30.000	0.033333	11.760	13.460	70.144	13.516	23.842	146.72	3.3090	17.447	0.0042536	30.000	0.033333	11.760	13.460	70.144	13.516	23.842	146.72	3.3090	17.447	0.0042536
-56.500	3.8934	undefined	11.767	13.471	70.175	30.000	0.033333	11.767	13.471	70.175	13.506	23.820	146.92	3.2934	17.483	0.0042627	30.000	0.033333	11.767	13.471	70.175	13.506	23.820	146.92	3.2934	17.483	0.0042627
-56.000	3.9034	undefined	11.774	13.482	70.206	30.000	0.033333	11.774	13.482	70.206	13.497	23.799	147.11	3.2780	17.519	0.0042718	30.000	0.033333	11.774	13.482	70.206	13.497	23.799	147.11	3.2780	17.519	0.0042718
-55.500	3.9134	undefined	11.780	13.493	70.237	30.000	0.033333	11.780	13.493	70.237	13.487	23.778	147.31	3.2627	17.554	0.0042808	30.000	0.033333	11.780	13.493	70.237	13.487	23.778	147.31	3.2627	17.554	0.0042808
-55.000	3.9234	undefined	11.787	13.504	70.268	30.000	0.033333	11.787	13.504	70.268	13.478	23.757	147.50	3.2475	17.590	0.0042899	30.000	0.033333	11.787	13.504	70.268	13.478	23.757	147.50	3.2475	17.590	0.0042899
-54.500	3.9334	undefined	11.794	13.515	70.299	30.000	0.033333	11.794	13.515	70.299	13.468	23.736	147.70	3.2325	17.626	0.0042989	30.000	0.033333	11.794	13.515	70.299	13.468	23.736	147.70	3.2325	17.626	0.0042989
-54.000	3.9434	undefined	11.801	13.526	70.330	30.000	0.033333	11.801	13.526	70.330	13.459	23.716	147.89	3.2175	17.662	0.0043080	30.000	0.033333	11.801	13.526	70.330	13.459	23.716	147.89	3.2175	17.662	0.0043080
-53.500	3.9533	undefined	11.807	13.537	70.360	30.000	0.033333	11.807	13.537	70.360	13.450	23.695	148.09	3.2027	17.698	0.0043170	30.000	0.033333	11.807	13.537	70.360	13.450	23.695	148.09	3.2027	17.698	0.0043170
-53.000	3.9633	undefined	11.814	13.549	70.391	30.000	0.033333	11.814	13.549	70.391	13.442	23.676	148.28	3.1881	17.734	0.0043261	30.000	0.033333	11.814	13.549	70.391	13.442	23.676	148.28	3.1881	17.734	0.0043261
-52.500	3.9733	undefined	11.821	13.560	70.421	30.000	0.033333	11.821	13.560	70.421	13.433	23.656	148.48	3.1735	17.770	0.0043351	30.000	0.033333	11.821	13.560	70.421	13.433	23.656	148.48	3.1735	17.770	0.0043351
-52.000	3.9833	undefined	11.827	13.571	70.452	30.000	0.033333	11.827	13.571	70.452	13.424	23.637	148.67	3.1591	17.805	0.0043442	30.000	0.033333	11.827	13.571	70.452	13.424	23.637	148.67	3.1591	17.805	0.0043442
-51.500	3.9932	undefined	11.834	13.582	70.482	30.000	0.033333	11.834	13.582	70.482	13.416	23.618	148.86	3.1448	17.841	0.0043532	30.000	0.033333	11.834	13.582	70.482	13.416	23.618	148.86	3.1448	17.841	0.0043532
-51.000	4.0032	undefined	11.841	13.593	70.512	30.000	0.033333	11.841	13.593	70.512	13.407	23.599	149.05	3.1307	17.877	0.0043622	30.000	0.033333	11.841	13.593	70.512	13.407	23.599	149.05	3.1307	17.877	0.0043622
-50.500	4.0131	undefined	11.848	13.604	70.542	30.000	0.033333	11.848	13.604	70.542	13.399	23.580	149.25	3.1166	17.913	0.0043713	30.000	0.033333	11.848	13.604	70.542	13.399	23.580	149.25	3.1166	17.913	0.0043713
-50.000	4.0231	undefined	11.854	13.615	70.572	30.000	0.033333	11.854	13.615	70.572	13.391	23.562	149.44	3.1027	17.949	0.0043803	30.000	0.033333	11.854	13.615	70.572	13.391	23.562	149.44	3.1027	17.949	0.0043803
-49.500	4.0331	undefined	11.861	13.626	70.602	30.000	0.033333	11.861	13.626	70.602	13.383	23.543	149.63	3.0888	17.985	0.0043893	30.000	0.033333	11.861	13.626	70.602	13.383	23.543	149.63	3.0888	17.985	0.0043893
-49.000	4.0430	undefined	11.868	13.637	70.632	30.000	0.033333	11.868	13.637	70.632	13.375	23.525	149.82	3.0751	18.021	0.0043984	30.000	0.033333	11.868	13.637	70.632	13.375	23.525	149.82	3.0751	18.021	0.0043984
-48.500	4.0530	undefined	11.874	13.648	70.662	30.000	0.033333	11.874	13.648	70.662	13.367	23.508	150.01	3.0615	18.057	0.0044074	30.000	0.033333	11.874	13.648	70.662	13.367	23.508	150.01	3.0615	18.057	0.0044074
-48.000	4.0629	undefined	11.881	13.659	70.692	30.000	0.033333	11.881	13.659	70.692	13.360	23.490	150.20	3.0480	18.093	0.0044164	30.000	0.033333	11.881	13.659	70.692	13.360	23.490	150.20	3.0480	18.093	0.0044164
-47.500	4.0729	undefined	11.888	13.670	70.721	30.000	0.033333	11.888	13.670	70.721	13.352	23.473	150.39	3.0346	18.128	0.0044254	30.000	0.033333	11.888	13.670	70.721	13.352	23.473	150.39	3.0346	18.128	0.0044254
-47.000	4.0828	undefined	11.894	13.681	70.751	30.000	0.033333	11.894	13.681	70.751	13.344	23.456	150.58	3.0213	18.164	0.0044344	30.000	0.033333	11.894	13.681	70.751	13.344	23.456	150.58	3.0213	18.164	0.0044344
-46.500	4.0927	undefined	11.901	13.692	70.780	30.000	0.033333	11.901	13.692	70.780	13.337	23.439	150.77	3.0082	18.200	0.0044434	30.000	0.033333	11.901	13.692	70.780	13.337	23.439	150.77	3.0082	18.200	0.0044434
-46.000	4.1027	undefined	11.908	13.703	70.810	30.000	0.033333	11.908	13.703	70.810	13.330	23.422	150.96	2.9951	18.236	0.0044524	30.000	0.033333	11.908	13.703	70.810	13.330	23.422	150.96	2.9951	18.236	0.0044524
-45.500	4.1126	undefined	11.914	13.714	70.839	30.000	0.033333	11.914	13.714	70.839	13.322	23.406	151.15	2.9821	18.272	0.0044615	30.000	0.033333	11.914	13.714	70.839	13.322	23.406	151.15	2.9821	18.272	0.0044615
-45.000	4.1226	undefined	11.921	13.725	70.868	30.000	0.033333	11.921	13.725	70.868	13.315	23.389	151.34	2.9693	18.308	0.0044705	30.000	0.033333	11.921	13.725	70.868	13.315	23.389	151.34	2.9693	18.308	0.0044705
-44.500	4.1325	undefined	11.928	13.736	70.897	30.000	0.033333	11.928	13.736	70.897	13.308	23.373	151.53	2.9565	18.344	0.0044795	30.000	0.033333	11.928	13.736	70.897	13.308	23.373	151.53	2.9565	18.344	0.0044795
-44.000	4.1424	undefined	11.934	13.747	70.927	30.000	0.033333	11.934	13.747	70.927	13.301	23.357	151.71	2.9439	18.380	0.0044885	30.000	0.033333	11.934	13.747	70.927	13.301	23.357	151.71	2.9439	18.380	0.0044885
-43.500	4.1523	undefined	11.941	13.758	70.956	30.000	0.033333	11.941	13.758	70.956	13.295	23.341	151.90	2.9313	18.416	0.0044975	30.000	0.033333	11.941	13.758	70.956	13.295	23.341	151.90	2.9313	18.416	0.0044975
-43.000	4.1623	undefined	11.948	13.769	70.984	30.000	0.033333	11.948	13.769	70.984	13.288	23.326	152.09	2.9188	18.452	0.0045065	30.000	0.033333	11.948	13.769	70.984	13.288	23.326	152.09	2.9188	18.452	0.0045065
-42.500	4.1722	undefined	11.954	13.780	71.013	30.000	0.033333	11.954	13.780	71.013	13.281	23.310	152.28	2.9064	18.488	0.0045154	30.000	0.033333	11.954	13.780	71.013	13.281	23.310	152.28	2.9064	18.488	0.0045154
-42.000	4.1821	undefined	11.961	13.791	71.042	30.000	0.033333	11.961	13.791	71.042	13.274	23.295	152.46	2.8942	18.524	0.0045244	30.000	0.033333	11.961	13.791	71.042	13.274	23.295	152.46	2.8942	18.524	0.0045244
-41.500	4.1920	undefined	11.968	13.802	71.071	30.000	0.033333	11.968	13.802	71.071	13.268	23.280	152.65	2.8820	18.560	0.0045334	30.000	0.033333	11.968	13.802	71.071	13.268	23.280	152.65	2.8820	18.560	0.0045334
-41.000	4.2019	undefined	11.974	13.813	71.099	30.000	0.033333	11.974	13.813	71.099	13.262	23.265	152.84	2.8699	18.595	0.0045424	30.000	0.033333	11.974	13.813	71.099	13.262	23.265	152.84	2.8699	18.595	0.0045424
-40.500	4.2119	undefined	11.981	13.824	71.128	30.000	0.033333	11.981	13.824	71.128	13.255	23.250	153.02	2.8579	18.631	0.0045514	30.000	0.033333	11.981	13.824	71.128	13.255	23.250	153.02	2.8579	18.631	0.0045514
-40.000	4.2218	undefined	11.987	13.835	71.156	30.000	0.033333	11.987	13.835	71.156	13.249	23.235	153.21	2.8460	18.667	0.0045604	30.000	0.033333	11.987	13.835	71.156	13.249	23.235	153.21	2.8460	18.667	0.0045604
-39.500	4.2317	undefined	11.994	13.846	71.185	30.000	0.033333	11.994	13.846	71.185	13.243	23.221	153.39	2.8342	18.703	0.0045693	30.000	0.033333	11.994	13.846	71.185	13.243	23.221	153.39	2.8342	18.703	0.0045693
-39.000	4.2416	undefined	12.001	13.857	71.213	30.000	0.033333	12.001	13.857	71.213	13.237	23.207	153.58	2.8224	18.739	0.0045783	30.000	0.033333	12.001	13.857	71.213	13.237	23.207	153.58	2.8224	18.739	0.0045783
-38.500	4.2515	undefined	12.007	13.868	71.241	30.000	0.033333	12.007	13.868	71.241	13.230	23.193	153.76	2.8108	18.775	0.0045873	30.000	0.033333	12.007	13.868	71.241	13.230	23.193	153.76	2.8108	18.775	0.0045873
-38.000	4.2614	undefined	12.014	13.879	71.269	30.000	0.033333	12.014	13.879	71.269	13.224	23.179	153.95	2.7992	18.811	0.0045962	30.000	0.033333	12.014	13.879	71.269	13.224	23.179	153.95	2.7992	18.811	0.0045962
-37.500	4.2713	undefined	12.021	13.890	71.297	30.000	0.033333	12.021	13.890	71.297	13.219	23.165	154.13	2.7877	18.847	0.0046052	30.000	0.033333	12.021	13.890	71.297	13.219	23.165	154.13	2.7877	18.847	0.0046052
-37.000	4.2812	undefined	12.027	13.901	71.325	30.000	0.033333	12.027	13.901	71.325	13.213	23.151	154.31	2.7763	18.883	0.0046142	30.000	0.033333	12.027	13.901	71.325	13.213	23.151	154.31	2.7763	18.883	0.0046142
-36.500	4.2911	undefined	12.034	13.912	71.353	30.000	0.033333	12.034	13.912	71.353	13.207	23.137	154.50	2.7650	18.919	0.0046231	30.000	0.033333	12.034	13.912	71.353	13.207	23.137	154.50	2.7650	18.919	0.0046231
-36.000	4.3010	undefined	12.040	13.923	71.381	30.000	0.033333	12.040	13.923	71.381	13.201	23.124	154.68	2.7538	18.955	0.0046321	30.000	0.033333	12.040	13.923	71.381	13.201	23.124	154.68	2.7538	18.955	0.0046321
-35.500	4.3109	undefined	12.047	13.934	71.409	30.000	0.033333	12.047	13.934	71.409	13.196	23.111	154.86	2.7427	18.991	0.0046410	30.000	0.033333	12.047	13.934	71.409	13.196	23.111	154.86	2.7427	18.991	0.0046410
-35.000	4.3208	undefined	12.054	13.944	71.437	30.000	0.033333	12.054	13.944	71.437	13.190	23.097	155.05	2.7316	19.027	0.0046500	30.000	0.033333	12.054	13.944	71.437	13.190	23.097	155.05	2.7316	19.027	0.0046500
-34.500	4.3307	undefined	12.060	13.955	71.464	30.000	0.033333	12.060	13.955	71.464	13.184	23.084	155.23	2.7206	19.063	0.0046589	30.000	0.033333	12.060	13.955	71.464	13.184	23.084	155.23	2.7206	19.063	0.0046589
-34.000	4.3406	undefined	12.067	13.966	71.492	30.000	0.033333	12.067	13.966	71.492	13.179	23.072	155.41	2.7097	19.099	0.0046679	30.000	0.033333	12.067	13.966	71.492	13.179	23.072	155.41	2.7097	19.099	0.0046679
-33.500	4.3505	undefined	12.073	13.977	71.520	30.000	0.033333	12.073	13.977	71.520	13.174	23.059	155.59	2.6989	19.135	0.0046768	30.000	0.033333	12.073	13.977	71.520	13.174	23.059	155.59	2.6989	19.135	0.0046768
-33.000	4.3604	undefined	12.080	13.988	71.547	30.000	0.033333	12.080	13.988	71.547	13.168	23.046	155.77	2.6881	19.171	0.0046858	30.000	0.033333	12.080	13.988	71.547	13.168	23.046	155.77	2.6881	19.171	0.0046858
-32.500	4.3702	undefined	12.086	13.999	71.574	30.000	0.033333	12.086	13.999	71.574	13.163	23.034	155.96	2.6774	19.207	0.0046947	30.000	0.033333	12.086	13.999	71.574	13.163	23.034	155.96	2.6774	19.207	0.0046947
-32.000	4.3801	undefined	12.093	14.010	71.602	30.000	0.033333	12.093	14.010	71.602	13.158	23.021	156.14	2.6668	19.242	0.0047037	30.000	0.033333	12.093	14.010	71.602	13.158	23.021	156.14	2.6668	19.242	0.0047037
-31.500	4.3900	undefined	12.100	14.021	71.629	30.000	0.033333	12.100	14.021	71.629	13.153	23.009	156.32	2.6563	19.278	0.0047126	30.000	0.033333	12.100	14.021	71.629	13.153	23.009	156.32	2.6563	19.278	0.0047126
-31.000	4.3999	undefined	12.106	14.032	71.656	30.000	0.033333	12.106	14.032	71.656	13.147	22.997	156.50	2.6459	19.314	0.0047215	30.000	0.033333	12.106	14.032	71.656	13.147	22.997	156.50	2.6459	19.314	0.0047215
-30.500	4.4098	undefined	12.113	14.043	71.683	30.000	0.033333	12.113	14.043	71.683	13.142	22.985	156.68	2.6355	19.350	0.0047304	30.000	0.033333	12.113	14.043	71.683	13.142	22.985	156.68	2.6355	19.350	0.0047304
-30.000	4.4196	undefined	12.119	14.054	71.710	30.000	0.033333	12.119	14.054	71.710	13.137	22.973	156.86	2.6252	19.386	0.0047394	30.000	0.033333	12.119	14.054	71.710	13.137	22.973	156.86	2.6252	19.386	0.0047394
-29.500	4.4295	undefined	12.126	14.064	71.737	30.000	0.033333	12.126	14.064	71.737	13.132	22.961	157.04	2.6149	19.422	0.0047483	30.000	0.033333	12.126	14.064	71.737	13.132	22.961	157.04	2.6149	19.422	0.0047483
-29.000	4.4394	undefined	12.132	14.075	71.764	30.000	0.033333	12.132	14.075	71.764	13.128	22.949	157.22	2.6048	19.458	0.0047572	30.000	0.033333	12.132	14.075	71.764	13.128	22.949	157.22	2.6048	19.458	0.0047572
-28.500	4.4493	undefined	12.139	14.086	71.791	30.000	0.033333	12.139	14.086	71.791	13.123	22.938	157.40	2.5947	19.494	0.0047661	30.000	0.033333	12.139	14.086	71.791	13.123	22.938	157.40	2.5947	19.494	0.0047661
-28.000	4.4591	undefined	12.146	14.097	71.818	30.000	0.033333	12.146	14.097	71.818	13.118	22.926	157.57	2.5846	19.530	0.0047750	30.000	0.033333	12.146	14.097	71.818	13.118	22.926	157.57	2.5846	19.530	0.0047750
-27.500	4.4690	undefined	12.152	14.108	71.845	30.000	0.033333	12.152	14.108	71.845	13.113	22.915	157.75	2.5747	19.566	0.0047840	30.000	0.033333	12.152	14.108	71.845	13.113	22.915	157.75	2.5747	19.566	0.0047840
-27.000	4.4789	undefined	12.159	14.119	71.871	30.000	0.033333	12.159	14.119	71.871	13.108	22.904	157.93	2.5648	19.602	0.0047929	30.000	0.033333	12.159	14.119	71.871	13.108	22.904	157.93	2.5648	19.602	0.0047929
-26.500	4.4887	undefined	12.165	14.130	71.898	30.000	0.033333	12.165	14.130	71.898	13.104	22.893	158.11	2.5549	19.638	0.0048018	30.000	0.033333	12.165	14.130	71.898	13.104	22.893	158.11	2.5549	19.638	0.0048018
-26.000	4.4986	undefined	12.172	14.141	71.924	30.000	0.033333	12.172	14.141	71.924	13.099	22.882	158.29	2.5452	19.674	0.0048107	30.000	0.033333	12.172	14.141	71.924	13.099	22.882	158.29	2.5452	19.674	0.0048107
-25.500	4.5085	undefined	12.178	14.151	71.951	30.000	0.033333	12.178	14.151	71.951	13.095	22.871	158.47	2.5355	19.710	0.0048196	30.000	0.033333	12.178	14.151	71.951	13.095	22.871	158.47	2.5355	19.710	0.0048196
-25.000	4.5183	undefined	12.185	14.162	71.977	30.000	0.033333	12.185	14.162	71.977	13.090	22.860	158.64	2.5259	19.746	0.0048285	30.000	0.033333	12.185	14.162	71.977	13.090	22.860	158.64	2.5259	19.746	0.0048285
-24.500	4.5282	undefined	12.191	14.173	72.004	30.000	0.033333	12.191	14.173	72.004	13.086	22.849	158.82	2.5163	19.782	0.0048374	30.000	0.033333	12.191	14.173	72.004	13.086	22.849	158.82	2.5163	19.782	0.0048374
-24.000	4.5380	undefined	12.198	14.184	72.030	30.000	0.033333	12.198	14.184	72.030	13.081	22.839	159.00	2.5068	19.818	0.0048463	30.000	0.033333	12.198	14.184	72.030	13.081	22.839	159.00	2.5068	19.818	0.0048463
-23.500	4.5479	undefined	12.205	14.195	72.056	30.000	0.033333	12.205	14.195	72.056	13.077	22.828	159.17	2.4974	19.854	0.0048552	30.000	0.033333	12.205	14.195	72.056	13.077	22.828	159.17	2.4974	19.854	0.0048552
-23.000	4.5578	undefined	12.211	14.206	72.082	30.000	0.033333	12.211	14.206	72.082	13.073	22.818	159.35	2.4880	19.890	0.0048640	30.000	0.033333	12.211	14.206	72.082	13.073	22.818	159.35	2.4880	19.890	0.0048640
-22.500	4.5676	undefined	12.218	14.217	72.108	30.000	0.033333	12.218	14.217	72.108	13.068	22.807	159.53	2.4787	19.926	0.0048729	30.000	0.033333	12.218	14.217	72.108	13.068	22.807	159.53	2.4787	19.926	0.0048729
-22.000	4.5775	undefined	12.224	14.227	72.134	30.000	0.033333	12.224	14.227	72.134	13.064	22.797	159.70	2.4694	19.962	0.0048818	30.000	0.033333	12.224	14.227	72.134	13.064	22.797	159.70	2.4694	19.962	0.0048818
-21.500	4.5873	undefined	12.231	14.238	72.160	30.000	0.033333	12.231	14.238	72.160	13.060	22.787	159.88	2.4602	19.998	0.0048907	30.000	0.033333	12.231	14.238	72.160	13.060	22.787	159.88	2.4602	19.998	0.0048907
-21.000	4.5972	undefined	12.237	14.249	72.186	30.000	0.033333	12.237	14.249	72.186	13.056	22.777	160.05	2.4511	20.033	0.0048996	30.000	0.033333	12.237	14.249	72.186	13.056	22.777	160.05	2.4511	20.033	0.0048996
-20.500	4.6070	undefined	12.244	14.260	72.212	30.000	0.033333	12.244	14.260	72.212	13.052	22.767	160.23	2.4420	20.069	0.0049084	30.000	0.033333	12.244	14.260	72.212	13.052	22.767	160.23	2.4420	20.069	0.0049084
-20.000	4.6169	undefined	12.250	14.271	72.238	30.000	0.033333	12.250	14.271	72.238	13.048	22.757	160.40	2.4330	20.105	0.0049173	30.000	0.033333	12.250	14.271	72.238	13.048	22.757	160.40	2.4330	20.105	0.0049173
-19.500	4.6267	undefined	12.257	14.282	72.264	30.000	0.033333	12.257	14.282	72.264	13.044	22.747	160.58	2.4240	20.141	0.0049262	30.000	0.033333	12.257	14.282	72.264	13.044	22.747	160.58	2.4240	20.141	0.0049262
-19.000	4.6366	undefined	12.263	14.292	72.289	30.000	0.033333	12.263	14.292	72.289	13.040	22.737	160.75	2.4151	20.177	0.0049350	30.000	0.033333	12.263	14.292	72.289	13.040	22.737	160.75	2.4151	20.177	0.0049350
-18.500	4.6464	undefined	12.270	14.303	72.315	30.000	0.033333	12.270	14.303	72.315	13.036	22.728	160.93	2.4063	20.213	0.0049439	30.000	0.033333	12.270	14.303	72.315	13.036	22.728	160.93	2.4063	20.213	0.0049439
-18.000	4.6562	undefined	12.276	14.314	72.340	30.000	0.033333	12.276	14.314	72.340	13.032	22.718	161.10	2.3975	20.249	0.0049528	30.000	0.033333	12.276	14.314	72.340	13.032	22.718	161.10	2.3975	20.249	0.0049528
-17.500	4.6661	undefined	12.283	14.325	72.366	30.000	0.033333	12.283	14.325	72.366	13.028	22.709	161.28	2.3888	20.285	0.0049616	30.000	0.033333	12.283	14.325	72.366	13.028	22.709	161.28	2.3888	20.285	0.0049616
-17.000	4.6759	undefined	12.289	14.336	72.391	30.000	0.033333	12.289	14.336	72.391	13.024	22.700	161.45	2.3801	20.321	0.0049705	30.000	0.033333	12.289	14.336	72.391	13.024	22.700	161.45	2.3801	20.321	0.0049705
-16.500	4.6858	undefined	12.296	14.347	72.417	30.000	0.033333	12.296	14.347	72.417	13.020	22.690	161.62	2.3715	20.357	0.0049793	30.000	0.033333	12.296	14.347	72.417	13.020	22.690	161.62	2.3715	20.357	0.0049793
-16.000	4.6956	undefined	12.302	14.357	72.442	30.000	0.033333	12.302	14.357	72.442	13.017	22.681	161.80	2.3629	20.393	0.0049882	30.000	0.033333	12.302	14.357	72.442	13.017	22.681	161.80	2.3629	20.393	0.0049882
-15.500	4.7054	undefined	12.309	14.368	72.467	30.000	0.033333	12.309	14.368	72.467	13.013	22.672	161.97	2.3544	20.429	0.0049970	30.000	0.033333	12.309	14.368	72.467	13.013	22.672	161.97	2.3544	20.429	0.0049970
-15.000	4.7153	undefined	12.315	14.379	72.493	30.000	0.033333	12.315	14.379	72.493	13.009	22.663	162.14	2.3460	20.465	0.0050059	30.000	0.033333	12.315	14.379	72.493	13.009	22.663	162.14	2.3460	20.465	0.0050059
-14.500	4.7251	undefined	12.322	14.390	72.518	30.000	0.033333	12.322	14.390	72.518	13.006	22.654	162.31	2.3376	20.501	0.0050147	30.000	0.033333	12.322	14.390	72.518	13.006	22.654	162.31	2.3376	20.501	0.0050147
-14.000	4.7349	undefined	12.328	14.401	72.543	30.000	0.033333	12.328	14.401	72.543	13.002	22.645	162.49	2.3292	20.537	0.0050235	30.000	0.033333	12.328	14.401	72.543	13.002	22.645	162.49	2.3292	20.537	0.0050235
-13.500	4.7448	undefined	12.335	14.411	72.568	30.000	0.033333	12.335	14.411	72.568	12.999	22.636	162.66	2.3209	20.573	0.0050324	30.000	0.033333	12.335	14.411	72.568	12.999	22.636	162.66	2.3209	20.573	0.0050324
-13.000	4.7546	undefined	12.341	14.422	72.593	30.000	0.033333	12.341	14.422	72.593	12.995	22.627	162.83	2.3126	20.609	0.0050412	30.000	0.033333	12.341	14.422	72.593	12.995	22.627	162.83	2.3126	20.609	0.0050412
-12.500	4.7644	undefined	12.348	14.433	72.618	30.000	0.033333	12.348	14.433	72.618	12.991	22.619	163.00	2.3044	20.644	0.0050500	30.000	0.033333	12.348	14.433	72.618	12.991	22.619	163.00	2.3044	20.644	0.0050500
-12.000	4.7742	undefined	12.354	14.444	72.643	30.000	0.033333	12.354	14.444	72.643	12.988	22.610	163.17	2.2963	20.680	0.0050588	30.000	0.033333	12.354	14.444	72.643	12.988	22.610	163.17	2.2963	20.680	0.0050588
-11.500	4.7841	undefined	12.361	14.455	72.668	30.000	0.033333	12.361	14.455	72.668	12.985	22.602	163.35	2.2882	20.716	0.0050677	30.000	0.033333	12.361	14.455	72.668	12.985	22.602	163.35	2.2882	20.716	0.0050677
-11.000	4.7939	undefined	12.367	14.465	72.693	30.000	0.033333	12.367	14.465	72.693	12.981	22.593	163.52	2.2802	20.752	0.0050765	30.000	0.033333	12.367	14.465	72.693	12.981	22.593	163.52	2.2802	20.752	0.0050765
-10.500	4.8037	undefined	12.374	14.476	72.717	30.000	0.033333	12.374	14.476	72.717	12.978	22.585	163.69	2.2722	20.788	0.0050853	30.000	0.033333	12.374	14.476	72.717	12.978	22.585	163.69	2.2722	20.788	0.0050853
-10.000	4.8135	undefined	12.380	14.487	72.742	30.000	0.033333	12.380	14.487	72.742	12.974	22.576	163.86	2.2642	20.824	0.0050941	30.000	0.033333	12.380	14.487	72.742	12.974	22.576	163.86	2.2642	20.824	0.0050941
-9.5000	4.8234	undefined	12.387	14.498	72.767	30.000	0.033333	12.387	14.498	72.767	12.971	22.568	164.03	2.2563	20.860	0.0051029	30.000	0.033333	12.387	14.498	72.767	12.971	22.568	164.03	2.2563	20.860	0.0051029
-9.0000	4.8332	undefined	12.393	14.509	72.791	30.000	0.033333	12.393	14.509	72.791	12.968	22.560	164.20	2.2485	20.896	0.0051117	30.000	0.033333	12.393	14.509	72.791	12.968	22.560	164.20	2.2485	20.896	0.0051117
-8.5000	4.8430	undefined	12.400	14.519	72.816	30.000	0.033333	12.400	14.519	72.816	12.965	22.552	164.37	2.2406	20.932	0.0051205	30.000	0.033333	12.400	14.519	72.816	12.965	22.552	164.37	2.2406	20.932	0.0051205
-8.0000	4.8528	undefined	12.406	14.530	72.840	30.000	0.033333	12.406	14.530	72.840	12.961	22.544	164.54	2.2329	20.968	0.0051293	30.000	0.033333	12.406	14.530	72.840	12.961	22.544	164.54	2.2329	20.968	0.0051293
-7.5000	4.8626	undefined	12.413	14.541	72.865	30.000	0.033333	12.413	14.541	72.865	12.958	22.536	164.71	2.2252	21.004	0.0051381	30.000	0.033333	12.413	14.541	72.865	12.958	22.536	164.71	2.2252	21.004	0.0051381
-7.0000	4.8725	undefined	12.419	14.552	72.889	30.000	0.033333	12.419	14.552	72.889	12.955	22.528	164.88	2.2175	21.040	0.0051469	30.000	0.033333	12.419	14.552	72.889	12.955	22.528	164.88	2.2175	21.040	0.0051469
-6.5000	4.8823	undefined	12.426	14.562	72.913	30.000	0.033333	12.426	14.562	72.913	12.952	22.520	165.05	2.2099	21.075	0.0051557	30.000	0.033333	12.426	14.562	72.913	12.952	22.520	165.05	2.2099	21.075	0.0051557
-6.0000	4.8921	undefined	12.432	14.573	72.937	30.000	0.033333	12.432	14.573	72.937	12.949	22.512	165.22	2.2023	21.111	0.0051645	30.000	0.033333	12.432	14.573	72.937	12.949	22.512	165.22	2.2023	21.111	0.0051645
-5.5000	4.9019	undefined	12.439	14.584	72.962	30.000	0.033333	12.439	14.584	72.962	12.946	22.505	165.38	2.1948	21.147	0.0051733	30.000	0.033333	12.439	14.584	72.962	12.946	22.505	165.38	2.1948	21.147	0.0051733
-5.0000	4.9117	undefined	12.445	14.595	72.986	30.000	0.033333	12.445	14.595	72.986	12.943	22.497	165.55	2.1873	21.183	0.0051821	30.000	0.033333	12.445	14.595	72.986	12.943	22.497	165.55	2.1873	21.183	0.0051821
-4.5000	4.9215	undefined	12.452	14.605	73.010	30.000	0.033333	12.452	14.605	73.010	12.940	22.489	165.72	2.1798	21.219	0.0051908	30.000	0.033333	12.452	14.605	73.010	12.940	22.489	165.72	2.1798	21.219	0.0051908
-4.0000	4.9313	undefined	12.458	14.616	73.034	30.000	0.033333	12.458	14.616	73.034	12.937	22.482	165.89	2.1724	21.255	0.0051996	30.000	0.033333	12.458	14.616	73.034	12.937	22.482	165.89	2.1724	21.255	0.0051996
-3.5000	4.9412	undefined	12.465	14.627	73.058	30.000	0.033333	12.465	14.627	73.058	12.934	22.474	166.06	2.1651	21.291	0.0052084	30.000	0.033333	12.465	14.627	73.058	12.934	22.474	166.06	2.1651	21.291	0.0052084
-3.0000	4.9510	undefined	12.471	14.638	73.082	30.000	0.033333	12.471	14.638	73.082	12.931	22.467	166.22	2.1578	21.327	0.0052171	30.000	0.033333	12.471	14.638	73.082	12.931	22.467	166.22	2.1578	21.327	0.0052171
-2.5000	4.9608	undefined	12.477	14.649	73.106	30.000	0.033333	12.477	14.649	73.106	12.928	22.459	166.39	2.1505	21.363	0.0052259	30.000	0.033333	12.477	14.649	73.106	12.928	22.459	166.39	2.1505	21.363	0.0052259
-2.0000	4.9706	undefined	12.484	14.659	73.130	30.000	0.033333	12.484	14.659	73.130	12.925	22.452	166.56	2.1433	21.399	0.0052347	30.000	0.033333	12.484	14.659	73.130	12.925	22.452	166.56	2.1433	21.399	0.0052347
-1.5000	4.9804	undefined	12.490	14.670	73.154	30.000	0.033333	12.490	14.670	73.154	12.922	22.445	166.73	2.1361	21.434	0.0052434	30.000	0.033333	12.490	14.670	73.154	12.922	22.445	166.73	2.1361	21.434	0.0052434
-1.0000	4.9902	undefined	12.497	14.681	73.177	30.000	0.033333	12.497	14.681	73.177	12.919	22.438	166.89	2.1290	21.470	0.0052522	30.000	0.033333	12.497	14.681	73.177	12.919	22.438	166.89	2.1290	21.470	0.0052522
-0.50000	5.0000	undefined	12.503	14.692	73.201	30.000	0.033333	12.503	14.692	73.201	12.917	22.430	167.06	2.1219	21.506	0.0052609	30.000	0.033333	12.503	14.692	73.201	12.917	22.430	167.06	2.1219	21.506	0.0052609
0.0000	5.0098	undefined	12.510	14.702	73.225	30.000	0.033333	12.510	14.702	73.225	12.914	22.423	167.23	2.1148	21.542	0.0052697	30.000	0.033333	12.510	14.702	73.225	12.914	22.423	167.23	2.1148	21.542	0.0052697
0.50000	5.0196	undefined	12.516	14.713	73.248	30.000	0.033333	12.516	14.713	73.248	12.911	22.416	167.39	2.1078	21.578	0.0052784	30.000	0.033333	12.516	14.713	73.248	12.911	22.416	167.39	2.1078	21.578	0.0052784
1.0000	5.0294	undefined	12.523	14.724	73.272	30.000	0.033333	12.523	14.724	73.272	12.908	22.409	167.56	2.1008	21.614	0.0052872	30.000	0.033333	12.523	14.724	73.272	12.908	22.409	167.56	2.1008	21.614	0.0052872
1.5000	5.0392	undefined	12.529	14.735	73.295	30.000	0.033333	12.529	14.735	73.295	12.906	22.402	167.73	2.0938	21.650	0.0052959	30.000	0.033333	12.529	14.735	73.295	12.906	22.402	167.73	2.0938	21.650	0.0052959
2.0000	5.0490	undefined	12.536	14.745	73.319	30.000	0.033333	12.536	14.745	73.319	12.903	22.396	167.89	2.0869	21.686	0.0053047	30.000	0.033333	12.536	14.745	73.319	12.903	22.396	167.89	2.0869	21.686	0.0053047
2.5000	5.0588	undefined	12.542	14.756	73.342	30.000	0.033333	12.542	14.756	73.342	12.900	22.389	168.06	2.0801	21.721	0.0053134	30.000	0.033333	12.542	14.756	73.342	12.900	22.389	168.06	2.0801	21.721	0.0053134
3.0000	5.0686	undefined	12.548	14.767	73.366	30.000	0.033333	12.548	14.767	73.366	12.898	22.382	168.22	2.0733	21.757	0.0053221	30.000	0.033333	12.548	14.767	73.366	12.898	22.382	168.22	2.0733	21.757	0.0053221
3.5000	5.0784	undefined	12.555	14.777	73.389	30.000	0.033333	12.555	14.777	73.389	12.895	22.375	168.39	2.0665	21.793	0.0053308	30.000	0.033333	12.555	14.777	73.389	12.895	22.375	168.39	2.0665	21.793	0.0053308
4.0000	5.0882	undefined	12.561	14.788	73.412	30.000	0.033333	12.561	14.788	73.412	12.892	22.369	168.55	2.0597	21.829	0.0053396	30.000	0.033333	12.561	14.788	73.412	12.892	22.369	168.55	2.0597	21.829	0.0053396
4.5000	5.0980	undefined	12.568	14.799	73.435	30.000	0.033333	12.568	14.799	73.435	12.890	22.362	168.72	2.0530	21.865	0.0053483	30.000	0.033333	12.568	14.799	73.435	12.890	22.362	168.72	2.0530	21.865	0.0053483
5.0000	5.1078	undefined	12.574	14.810	73.459	30.000	0.033333	12.574	14.810	73.459	12.887	22.355	168.88	2.0463	21.901	0.0053570	30.000	0.033333	12.574	14.810	73.459	12.887	22.355	168.88	2.0463	21.901	0.0053570
5.5000	5.1176	undefined	12.581	14.820	73.482	30.000	0.033333	12.581	14.820	73.482	12.885	22.349	169.05	2.0397	21.936	0.0053657	30.000	0.033333	12.581	14.820	73.482	12.885	22.349	169.05	2.0397	21.936	0.0053657
6.0000	5.1274	undefined	12.587	14.831	73.505	30.000	0.033333	12.587	14.831	73.505	12.882	22.342	169.21	2.0331	21.972	0.0053744	30.000	0.033333	12.587	14.831	73.505	12.882	22.342	169.21	2.0331	21.972	0.0053744
6.5000	5.1372	undefined	12.594	14.842	73.528	30.000	0.033333	12.594	14.842	73.528	12.880	22.336	169.38	2.0266	22.008	0.0053831	30.000	0.033333	12.594	14.842	73.528	12.880	22.336	169.38	2.0266	22.008	0.0053831
7.0000	5.1469	undefined	12.600	14.853	73.551	30.000	0.033333	12.600	14.853	73.551	12.877	22.330	169.54	2.0200	22.044	0.0053918	30.000	0.033333	12.600	14.853	73.551	12.877	22.330	169.54	2.0200	22.044	0.0053918
7.5000	5.1567	undefined	12.606	14.863	73.574	30.000	0.033333	12.606	14.863	73.574	12.875	22.323	169.70	2.0135	22.080	0.0054005	30.000	0.033333	12.606	14.863	73.574	12.875	22.323	169.70	2.0135	22.080	0.0054005
8.0000	5.1665	undefined	12.613	14.874	73.597	30.000	0.033333	12.613	14.874	73.597	12.872	22.317	169.87	2.0071	22.116	0.0054092	30.000	0.033333	12.613	14.874	73.597	12.872	22.317	169.87	2.0071	22.116	0.0054092
8.5000	5.1763	undefined	12.619	14.885	73.620	30.000	0.033333	12.619	14.885	73.620	12.870	22.311	170.03	2.0007	22.151	0.0054179	30.000	0.033333	12.619	14.885	73.620	12.870	22.311	170.03	2.0007	22.151	0.0054179
9.0000	5.1861	undefined	12.626	14.895	73.643	30.000	0.033333	12.626	14.895	73.643	12.868	22.305	170.19	1.9943	22.187	0.0054266	30.000	0.033333	12.626	14.895	73.643	12.868	22.305	170.19	1.9943	22.187	0.0054266
9.5000	5.1959	undefined	12.632	14.906	73.665	30.000	0.033333	12.632	14.906	73.665	12.865	22.298	170.36	1.9879	22.223	0.0054353	30.000	0.033333	12.632	14.906	73.665	12.865	22.298	170.36	1.9879	22.223	0.0054353
10.000	5.2057	undefined	12.639	14.917	73.688	30.000	0.033333	12.639	14.917	73.688	12.863	22.292	170.52	1.9816	22.259	0.0054440	30.000	0.033333	12.639	14.917	73.688	12.863	22.292	170.52	1.9816	22.259	0.0054440
10.500	5.2155	undefined	12.645	14.928	73.711	30.000	0.033333	12.645	14.928	73.711	12.861	22.286	170.68	1.9754	22.295	0.0054527	30.000	0.033333	12.645	14.928	73.711	12.861	22.286	170.68	1.9754	22.295	0.0054527
11.000	5.2252	undefined	12.652	14.938	73.733	30.000	0.033333	12.652	14.938	73.733	12.858	22.280	170.85	1.9691	22.331	0.0054613	30.000	0.033333	12.652	14.938	73.733	12.858	22.280	170.85	1.9691	22.331	0.0054613
11.500	5.2350	undefined	12.658	14.949	73.756	30.000	0.033333	12.658	14.949	73.756	12.856	22.274	171.01	1.9629	22.366	0.0054700	30.000	0.033333	12.658	14.949	73.756	12.856	22.274	171.01	1.9629	22.366	0.0054700
12.000	5.2448	undefined	12.664	14.960	73.779	30.000	0.033333	12.664	14.960	73.779	12.854	22.268	171.17	1.9567	22.402	0.0054787	30.000	0.033333	12.664	14.960	73.779	12.854	22.268	171.17	1.9567	22.402	0.0054787
12.500	5.2546	undefined	12.671	14.970	73.801	30.000	0.033333	12.671	14.970	73.801	12.852	22.263	171.33	1.9506	22.438	0.0054874	30.000	0.033333	12.671	14.970	73.801	12.852	22.263	171.33	1.9506	22.438	0.0054874
13.000	5.2644	undefined	12.677	14.981	73.824	30.000	0.033333	12.677	14.981	73.824	12.849	22.257	171.49	1.9445	22.474	0.0054960	30.000	0.033333	12.677	14.981	73.824	12.849	22.257	171.49	1.9445	22.474	0.0054960
13.500	5.2741	undefined	12.684	14.992	73.846	30.000	0.033333	12.684	14.992	73.846	12.847	22.251	171.66	1.9384	22.509	0.0055047	30.000	0.033333	12.684	14.992	73.846	12.847	22.251	171.66	1.9384	22.509	0.0055047
14.000	5.2839	undefined	12.690	15.003	73.868	30.000	0.033333	12.690	15.003	73.868	12.845	22.245	171.82	1.9323	22.545	0.0055133	30.000	0.033333	12.690	15.003	73.868	12.845	22.245	171.82	1.9323	22.545	0.0055133
14.500	5.2937	undefined	12.696	15.013	73.891	30.000	0.033333	12.696	15.013	73.891	12.843	22.239	171.98	1.9263	22.581	0.0055220	30.000	0.033333	12.696	15.013	73.891	12.843	22.239	171.98	1.9263	22.581	0.0055220
15.000	5.3035	undefined	12.703	15.024	73.913	30.000	0.033333	12.703	15.024	73.913	12.841	22.234	172.14	1.9203	22.617	0.0055306	30.000	0.033333	12.703	15.024	73.913	12.841	22.234	172.14	1.9203	22.617	0.0055306
15.500	5.3133	undefined	12.709	15.035	73.935	30.000	0.033333	12.709	15.035	73.935	12.838	22.228	172.30	1.9144	22.653	0.0055393	30.000	0.033333	12.709	15.035	73.935	12.838	22.228	172.30	1.9144	22.653	0.0055393
16.000	5.3230	undefined	12.716	15.045	73.957	30.000	0.033333	12.716	15.045	73.957	12.836	22.223	172.46	1.9085	22.688	0.0055479	30.000	0.033333	12.716	15.045	73.957	12.836	22.223	172.46	1.9085	22.688	0.0055479
16.500	5.3328	undefined	12.722	15.056	73.980	30.000	0.033333	12.722	15.056	73.980	12.834	22.217	172.62	1.9026	22.724	0.0055566	30.000	0.033333	12.722	15.056	73.980	12.834	22.217	172.62	1.9026	22.724	0.0055566
17.000	5.3426	undefined	12.729	15.067	74.002	30.000	0.033333	12.729	15.067	74.002	12.832	22.211	172.78	1.8967	22.760	0.0055652	30.000	0.033333	12.729	15.067	74.002	12.832	22.211	172.78	1.8967	22.760	0.0055652
17.500	5.3524	undefined	12.735	15.077	74.024	30.000	0.033333	12.735	15.077	74.024	12.830	22.206	172.94	1.8909	22.796	0.0055738	30.000	0.033333	12.735	15.077	74.024	12.830	22.206	172.94	1.8909	22.796	0.0055738
18.000	5.3621	undefined	12.741	15.088	74.046	30.000	0.033333	12.741	15.088	74.046	12.828	22.201	173.10	1.8851	22.831	0.0055825	30.000	0.033333	12.741	15.088	74.046	12.828	22.201	173.10	1.8851	22.831	0.0055825
18.500	5.3719	undefined	12.748	15.099	74.068	30.000	0.033333	12.748	15.099	74.068	12.826	22.195	173.26	1.8794	22.867	0.0055911	30.000	0.033333	12.748	15.099	74.068	12.826	22.195	173.26	1.8794	22.867	0.0055911
19.000	5.3817	undefined	12.754	15.109	74.090	30.000	0.033333	12.754	15.109	74.090	12.824	22.190	173.42	1.8736	22.903	0.0055997	30.000	0.033333	12.754	15.109	74.090	12.824	22.190	173.42	1.8736	22.903	0.0055997
19.500	5.3915	undefined	12.761	15.120	74.112	30.000	0.033333	12.761	15.120	74.112	12.822	22.185	173.58	1.8679	22.939	0.0056083	30.000	0.033333	12.761	15.120	74.112	12.822	22.185	173.58	1.8679	22.939	0.0056083
20.000	5.4012	undefined	12.767	15.131	74.134	30.000	0.033333	12.767	15.131	74.134	12.820	22.179	173.74	1.8622	22.974	0.0056169	30.000	0.033333	12.767	15.131	74.134	12.820	22.179	173.74	1.8622	22.974	0.0056169
20.500	5.4110	undefined	12.773	15.142	74.156	30.000	0.033333	12.773	15.142	74.156	12.818	22.174	173.90	1.8566	23.010	0.0056256	30.000	0.033333	12.773	15.142	74.156	12.818	22.174	173.90	1.8566	23.010	0.0056256
21.000	5.4208	undefined	12.780	15.152	74.177	30.000	0.033333	12.780	15.152	74.177	12.816	22.169	174.06	1.8510	23.046	0.0056342	30.000	0.033333	12.780	15.152	74.177	12.816	22.169	174.06	1.8510	23.046	0.0056342
21.500	5.4305	undefined	12.786	15.163	74.199	30.000	0.033333	12.786	15.163	74.199	12.814	22.164	174.22	1.8454	23.081	0.0056428	30.000	0.033333	12.786	15.163	74.199	12.814	22.164	174.22	1.8454	23.081	0.0056428
22.000	5.4403	undefined	12.793	15.174	74.221	30.000	0.033333	12.793	15.174	74.221	12.812	22.158	174.38	1.8398	23.117	0.0056514	30.000	0.033333	12.793	15.174	74.221	12.812	22.158	174.38	1.8398	23.117	0.0056514
22.500	5.4501	undefined	12.799	15.184	74.243	30.000	0.033333	12.799	15.184	74.243	12.810	22.153	174.54	1.8343	23.153	0.0056600	30.000	0.033333	12.799	15.184	74.243	12.810	22.153	174.54	1.8343	23.153	0.0056600
23.000	5.4598	undefined	12.805	15.195	74.264	30.000	0.033333	12.805	15.195	74.264	12.808	22.148	174.70	1.8288	23.189	0.0056686	30.000	0.033333	12.805	15.195	74.264	12.808	22.148	174.70	1.8288	23.189	0.0056686
23.500	5.4696	undefined	12.812	15.206	74.286	30.000	0.033333	12.812	15.206	74.286	12.807	22.143	174.85	1.8233	23.224	0.0056772	30.000	0.033333	12.812	15.206	74.286	12.807	22.143	174.85	1.8233	23.224	0.0056772
24.000	5.4794	undefined	12.818	15.216	74.307	30.000	0.033333	12.818	15.216	74.307	12.805	22.138	175.01	1.8179	23.260	0.0056857	30.000	0.033333	12.818	15.216	74.307	12.805	22.138	175.01	1.8179	23.260	0.0056857
24.500	5.4891	undefined	12.825	15.227	74.329	30.000	0.033333	12.825	15.227	74.329	12.803	22.133	175.17	1.8125	23.296	0.0056943	30.000	0.033333	12.825	15.227	74.329	12.803	22.133	175.17	1.8125	23.296	0.0056943
25.000	5.4989	undefined	12.831	15.238	74.350	30.000	0.033333	12.831	15.238	74.350	12.801	22.128	175.33	1.8071	23.331	0.0057029	30.000	0.033333	12.831	15.238	74.350	12.801	22.128	175.33	1.8071	23.331	0.0057029
25.500	5.5087	undefined	12.838	15.248	74.372	30.000	0.033333	12.838	15.248	74.372	12.799	22.123	175.49	1.8017	23.367	0.0057115	30.000	0.033333	12.838	15.248	74.372	12.799	22.123	175.49	1.8017	23.367	0.0057115
26.000	5.5184	undefined	12.844	15.259	74.393	30.000	0.033333	12.844	15.259	74.393	12.797	22.119	175.64	1.7964	23.403	0.0057201	30.000	0.033333	12.844	15.259	74.393	12.797	22.119	175.64	1.7964	23.403	0.0057201
26.500	5.5282	undefined	12.850	15.270	74.415	30.000	0.033333	12.850	15.270	74.415	12.796	22.114	175.80	1.7911	23.438	0.0057286	30.000	0.033333	12.850	15.270	74.415	12.796	22.114	175.80	1.7911	23.438	0.0057286
27.000	5.5379	undefined	12.857	15.280	74.436	30.000	0.033333	12.857	15.280	74.436	12.794	22.109	175.96	1.7858	23.474	0.0057372	30.000	0.033333	12.857	15.280	74.436	12.794	22.109	175.96	1.7858	23.474	0.0057372
27.500	5.5477	undefined	12.863	15.291	74.457	30.000	0.033333	12.863	15.291	74.457	12.792	22.104	176.11	1.7805	23.510	0.0057458	30.000	0.033333	12.863	15.291	74.457	12.792	22.104	176.11	1.7805	23.510	0.0057458
28.000	5.5575	undefined	12.869	15.302	74.478	30.000	0.033333	12.869	15.302	74.478	12.790	22.099	176.27	1.7753	23.545	0.0057543	30.000	0.033333	12.869	15.302	74.478	12.790	22.099	176.27	1.7753	23.545	0.0057543
28.500	5.5672	undefined	12.876	15.312	74.500	30.000	0.033333	12.876	15.312	74.500	12.789	22.095	176.43	1.7701	23.581	0.0057629	30.000	0.033333	12.876	15.312	74.500	12.789	22.095	176.43	1.7701	23.581	0.0057629
29.000	5.5770	undefined	12.882	15.323	74.521	30.000	0.033333	12.882	15.323	74.521	12.787	22.090	176.58	1.7649	23.617	0.0057714	30.000	0.033333	12.882	15.323	74.521	12.787	22.090	176.58	1.7649	23.617	0.0057714
29.500	5.5867	undefined	12.889	15.334	74.542	30.000	0.033333	12.889	15.334	74.542	12.785	22.085	176.74	1.7598	23.652	0.0057800	30.000	0.033333	12.889	15.334	74.542	12.785	22.085	176.74	1.7598	23.652	0.0057800
30.000	5.5965	undefined	12.895	15.344	74.563	30.000	0.033333	12.895	15.344	74.563	12.784	22.081	176.90	1.7546	23.688	0.0057885	30.000	0.033333	12.895	15.344	74.563	12.784	22.081	176.90	1.7546	23.688	0.0057885
